#  E (eV)   dos(E)     Int dos(E)
  4.000 -0.1158E-74 -0.5789E-76
  4.050 -0.7690E-69 -0.3845E-70
  4.100 -0.2936E-63 -0.1468E-64
  4.150 -0.6443E-58 -0.3222E-59
  4.200 -0.8125E-53 -0.4063E-54
  4.250 -0.5887E-48 -0.2944E-49
  4.300 -0.2451E-43 -0.1225E-44
  4.350 -0.5860E-39 -0.2930E-40
  4.400 -0.8048E-35 -0.4024E-36
  4.450 -0.6349E-31 -0.3175E-32
  4.500 -0.2878E-27 -0.1439E-28
  4.550 -0.7495E-24 -0.3749E-25
  4.600 -0.1122E-20 -0.5615E-22
  4.650 -0.9665E-18 -0.4838E-19
  4.700 -0.4791E-15 -0.2400E-16
  4.750 -0.1368E-12 -0.6864E-14
  4.800 -0.2251E-10 -0.1132E-11
  4.850 -0.2133E-08 -0.1078E-09
  4.900 -0.1161E-06 -0.5914E-08
  4.950 -0.3611E-05 -0.1865E-06
  5.000 -0.6335E-04 -0.3354E-05
  5.050 -0.6112E-03 -0.3392E-04
  5.100 -0.3047E-02 -0.1863E-03
  5.150 -0.6184E-02 -0.4955E-03
  5.200  0.5994E-02 -0.1958E-03
  5.250  0.5832E-01  0.2720E-02
  5.300  0.1445E+00  0.9945E-02
  5.350  0.2262E+00  0.2126E-01
  5.400  0.2769E+00  0.3510E-01
  5.450  0.2758E+00  0.4889E-01
  5.500  0.3403E+00  0.6591E-01
  5.550  0.9768E+00  0.1147E+00
  5.600  0.2479E+01  0.2387E+00
  5.650  0.4293E+01  0.4534E+00
  5.700  0.5724E+01  0.7396E+00
  5.750  0.6398E+01  0.1059E+01
  5.800  0.6812E+01  0.1400E+01
  5.850  0.7309E+01  0.1765E+01
  5.900  0.7088E+01  0.2120E+01
  5.950  0.6323E+01  0.2436E+01
  6.000  0.6060E+01  0.2739E+01
  6.050  0.6272E+01  0.3053E+01
  6.100  0.6086E+01  0.3357E+01
  6.150  0.5588E+01  0.3636E+01
  6.200  0.5599E+01  0.3916E+01
  6.250  0.6305E+01  0.4232E+01
  6.300  0.6932E+01  0.4578E+01
  6.350  0.6399E+01  0.4898E+01
  6.400  0.5146E+01  0.5155E+01
  6.450  0.4334E+01  0.5372E+01
  6.500  0.4088E+01  0.5577E+01
  6.550  0.4210E+01  0.5787E+01
  6.600  0.4185E+01  0.5996E+01
  6.650  0.3572E+01  0.6175E+01
  6.700  0.3003E+01  0.6325E+01
  6.750  0.2923E+01  0.6471E+01
  6.800  0.3298E+01  0.6636E+01
  6.850  0.3824E+01  0.6827E+01
  6.900  0.3981E+01  0.7026E+01
  6.950  0.4034E+01  0.7228E+01
  7.000  0.4659E+01  0.7461E+01
  7.050  0.5654E+01  0.7744E+01
  7.100  0.6359E+01  0.8062E+01
  7.150  0.6467E+01  0.8385E+01
  7.200  0.6313E+01  0.8701E+01
  7.250  0.6343E+01  0.9018E+01
  7.300  0.6318E+01  0.9334E+01
  7.350  0.5856E+01  0.9626E+01
  7.400  0.5190E+01  0.9886E+01
  7.450  0.4876E+01  0.1013E+02
  7.500  0.5396E+01  0.1040E+02
  7.550  0.6559E+01  0.1073E+02
  7.600  0.7503E+01  0.1110E+02
  7.650  0.7992E+01  0.1150E+02
  7.700  0.8273E+01  0.1192E+02
  7.750  0.8272E+01  0.1233E+02
  7.800  0.7719E+01  0.1272E+02
  7.850  0.6704E+01  0.1305E+02
  7.900  0.6350E+01  0.1337E+02
  7.950  0.7078E+01  0.1372E+02
  8.000  0.7194E+01  0.1408E+02
  8.050  0.6346E+01  0.1440E+02
  8.100  0.5792E+01  0.1469E+02
  8.150  0.5449E+01  0.1496E+02
  8.200  0.5017E+01  0.1521E+02
  8.250  0.4797E+01  0.1545E+02
  8.300  0.4744E+01  0.1569E+02
  8.350  0.4794E+01  0.1593E+02
  8.400  0.4993E+01  0.1618E+02
  8.450  0.5071E+01  0.1643E+02
  8.500  0.5036E+01  0.1668E+02
  8.550  0.5257E+01  0.1695E+02
  8.600  0.6105E+01  0.1725E+02
  8.650  0.7585E+01  0.1763E+02
  8.700  0.8547E+01  0.1806E+02
  8.750  0.8367E+01  0.1848E+02
  8.800  0.8439E+01  0.1890E+02
  8.850  0.9214E+01  0.1936E+02
  8.900  0.9294E+01  0.1982E+02
  8.950  0.8237E+01  0.2024E+02
  9.000  0.7227E+01  0.2060E+02
  9.050  0.7373E+01  0.2097E+02
  9.100  0.8280E+01  0.2138E+02
  9.150  0.8554E+01  0.2181E+02
  9.200  0.7833E+01  0.2220E+02
  9.250  0.6741E+01  0.2254E+02
  9.300  0.5852E+01  0.2283E+02
  9.350  0.5312E+01  0.2309E+02
  9.400  0.4749E+01  0.2333E+02
  9.450  0.3694E+01  0.2352E+02
  9.500  0.2396E+01  0.2364E+02
  9.550  0.1586E+01  0.2372E+02
  9.600  0.1309E+01  0.2378E+02
  9.650  0.1191E+01  0.2384E+02
  9.700  0.1107E+01  0.2390E+02
  9.750  0.1005E+01  0.2395E+02
  9.800  0.7457E+00  0.2398E+02
  9.850  0.3365E+00  0.2400E+02
  9.900  0.3914E-01  0.2400E+02
  9.950 -0.3370E-01  0.2400E+02
 10.000 -0.1603E-01  0.2400E+02
 10.050 -0.2986E-02  0.2400E+02
 10.100 -0.2815E-03  0.2400E+02
 10.150 -0.1434E-04  0.2400E+02
 10.200 -0.4049E-06  0.2400E+02
 10.250 -0.6419E-08  0.2400E+02
 10.300 -0.5757E-10  0.2400E+02
 10.350 -0.2934E-12  0.2400E+02
 10.400 -0.8522E-15  0.2400E+02
 10.450 -0.1414E-17  0.2400E+02
 10.500 -0.1342E-20  0.2400E+02
 10.550 -0.7297E-24  0.2400E+02
 10.600 -0.2274E-27  0.2400E+02
 10.650 -0.4066E-31  0.2400E+02
 10.700 -0.4173E-35  0.2400E+02
 10.750 -0.2459E-39  0.2400E+02
 10.800 -0.8324E-44  0.2400E+02
 10.850 -0.1619E-48  0.2400E+02
 10.900 -0.1810E-53  0.2400E+02
 10.950 -0.6289E-58  0.2400E+02
 11.000 -0.7758E-53  0.2400E+02
 11.050 -0.6749E-48  0.2400E+02
 11.100 -0.3374E-43  0.2400E+02
 11.150 -0.9691E-39  0.2400E+02
 11.200 -0.1599E-34  0.2400E+02
 11.250 -0.1514E-30  0.2400E+02
 11.300 -0.8230E-27  0.2400E+02
 11.350 -0.2567E-23  0.2400E+02
 11.400 -0.4592E-20  0.2400E+02
 11.450 -0.4708E-17  0.2400E+02
 11.500 -0.2766E-14  0.2400E+02
 11.550 -0.9308E-12  0.2400E+02
 11.600 -0.1792E-09  0.2400E+02
 11.650 -0.1972E-07  0.2400E+02
 11.700 -0.1238E-05  0.2400E+02
 11.750 -0.4413E-04  0.2400E+02
 11.800 -0.8854E-03  0.2400E+02
 11.850 -0.9795E-02  0.2400E+02
 11.900 -0.5661E-01  0.2400E+02
 11.950 -0.1404E+00  0.2399E+02
 12.000  0.6293E-01  0.2399E+02
 12.050  0.1160E+01  0.2405E+02
 12.100  0.2961E+01  0.2420E+02
 12.150  0.4545E+01  0.2443E+02
 12.200  0.5592E+01  0.2471E+02
 12.250  0.6104E+01  0.2501E+02
 12.300  0.6338E+01  0.2533E+02
 12.350  0.6596E+01  0.2566E+02
 12.400  0.6441E+01  0.2598E+02
 12.450  0.5595E+01  0.2626E+02
 12.500  0.4786E+01  0.2650E+02
 12.550  0.4629E+01  0.2673E+02
 12.600  0.4467E+01  0.2695E+02
 12.650  0.3556E+01  0.2713E+02
 12.700  0.2596E+01  0.2726E+02
 12.750  0.2212E+01  0.2737E+02
 12.800  0.1848E+01  0.2746E+02
 12.850  0.1520E+01  0.2754E+02
 12.900  0.1565E+01  0.2762E+02
 12.950  0.1443E+01  0.2769E+02
 13.000  0.8756E+00  0.2773E+02
 13.050  0.4329E+00  0.2776E+02
 13.100  0.4863E+00  0.2778E+02
 13.150  0.7309E+00  0.2782E+02
 13.200  0.8191E+00  0.2786E+02
 13.250  0.6440E+00  0.2789E+02
 13.300  0.4255E+00  0.2791E+02
 13.350  0.3787E+00  0.2793E+02
 13.400  0.3969E+00  0.2795E+02
 13.450  0.3332E+00  0.2797E+02
 13.500  0.2115E+00  0.2798E+02
 13.550  0.1400E+00  0.2798E+02
 13.600  0.1390E+00  0.2799E+02
 13.650  0.1167E+00  0.2800E+02
 13.700  0.5370E-01  0.2800E+02
 13.750  0.1030E-01  0.2800E+02
 13.800 -0.1786E-02  0.2800E+02
 13.850 -0.2130E-02  0.2800E+02
 13.900 -0.7822E-03  0.2800E+02
 13.950 -0.1449E-03  0.2800E+02
 14.000 -0.1420E-04  0.2800E+02
 14.050 -0.7522E-06  0.2800E+02
 14.100 -0.2191E-07  0.2800E+02
 14.150 -0.3551E-09  0.2800E+02
 14.200 -0.3231E-11  0.2800E+02
 14.250 -0.1660E-13  0.2800E+02
 14.300 -0.4832E-16  0.2800E+02
 14.350 -0.8001E-19  0.2800E+02
 14.400 -0.7550E-22  0.2800E+02
 14.450 -0.4068E-25  0.2800E+02
 14.500 -0.1253E-28  0.2800E+02
 14.550 -0.2247E-32  0.2800E+02
 14.600 -0.3170E-30  0.2800E+02
 14.650 -0.1524E-26  0.2800E+02
 14.700 -0.4222E-23  0.2800E+02
 14.750 -0.6742E-20  0.2800E+02
 14.800 -0.6205E-17  0.2800E+02
 14.850 -0.3292E-14  0.2800E+02
 14.900 -0.1006E-11  0.2800E+02
 14.950 -0.1771E-09  0.2800E+02
 15.000 -0.1793E-07  0.2800E+02
 15.050 -0.1043E-05  0.2800E+02
 15.100 -0.3470E-04  0.2800E+02
 15.150 -0.6554E-03  0.2800E+02
 15.200 -0.6897E-02  0.2800E+02
 15.250 -0.3839E-01  0.2800E+02
 15.300 -0.9223E-01  0.2799E+02
 15.350  0.5341E-01  0.2800E+02
 15.400  0.8280E+00  0.2804E+02
 15.450  0.2069E+01  0.2814E+02
 15.500  0.2888E+01  0.2829E+02
 15.550  0.2988E+01  0.2843E+02
 15.600  0.2841E+01  0.2858E+02
 15.650  0.2942E+01  0.2872E+02
 15.700  0.3349E+01  0.2889E+02
 15.750  0.3583E+01  0.2907E+02
 15.800  0.3489E+01  0.2924E+02
 15.850  0.3622E+01  0.2943E+02
 15.900  0.4161E+01  0.2963E+02
 15.950  0.4597E+01  0.2986E+02
 16.000  0.4648E+01  0.3010E+02
 16.050  0.4641E+01  0.3033E+02
 16.100  0.5300E+01  0.3059E+02
 16.150  0.6422E+01  0.3091E+02
 16.200  0.6777E+01  0.3125E+02
 16.250  0.6678E+01  0.3159E+02
 16.300  0.7774E+01  0.3198E+02
 16.350  0.9389E+01  0.3245E+02
 16.400  0.9467E+01  0.3292E+02
 16.450  0.7725E+01  0.3330E+02
 16.500  0.6160E+01  0.3361E+02
 16.550  0.6118E+01  0.3392E+02
 16.600  0.6001E+01  0.3422E+02
 16.650  0.5071E+01  0.3447E+02
 16.700  0.4201E+01  0.3468E+02
 16.750  0.3752E+01  0.3487E+02
 16.800  0.4470E+01  0.3509E+02
 16.850  0.5984E+01  0.3539E+02
 16.900  0.6206E+01  0.3570E+02
 16.950  0.4758E+01  0.3594E+02
 17.000  0.3424E+01  0.3611E+02
 17.050  0.3190E+01  0.3627E+02
 17.100  0.3751E+01  0.3646E+02
 17.150  0.4986E+01  0.3671E+02
 17.200  0.5638E+01  0.3699E+02
 17.250  0.4214E+01  0.3720E+02
 17.300  0.2175E+01  0.3731E+02
 17.350  0.1214E+01  0.3737E+02
 17.400  0.1389E+01  0.3744E+02
 17.450  0.2767E+01  0.3758E+02
 17.500  0.4224E+01  0.3779E+02
 17.550  0.3812E+01  0.3798E+02
 17.600  0.2364E+01  0.3810E+02
 17.650  0.2240E+01  0.3821E+02
 17.700  0.3621E+01  0.3839E+02
 17.750  0.4809E+01  0.3863E+02
 17.800  0.4647E+01  0.3886E+02
 17.850  0.4232E+01  0.3908E+02
 17.900  0.4988E+01  0.3932E+02
 17.950  0.5652E+01  0.3961E+02
 18.000  0.4606E+01  0.3984E+02
 18.050  0.2578E+01  0.3997E+02
 18.100  0.8439E+00  0.4001E+02
 18.150 -0.3572E-02  0.4001E+02
 18.200 -0.1219E+00  0.4000E+02
 18.250 -0.4454E-01  0.4000E+02
 18.300 -0.7244E-02  0.4000E+02
 18.350 -0.6144E-03  0.4000E+02
 18.400 -0.2852E-04  0.4000E+02
 18.450 -0.7403E-06  0.4000E+02
 18.500 -0.1086E-07  0.4000E+02
 18.550 -0.9053E-10  0.4000E+02
 18.600 -0.4308E-12  0.4000E+02
 18.650 -0.1173E-14  0.4000E+02
 18.700 -0.1828E-17  0.4000E+02
 18.750 -0.1635E-20  0.4000E+02
 18.800 -0.8391E-24  0.4000E+02
 18.850 -0.2473E-27  0.4000E+02
 18.900 -0.4189E-31  0.4000E+02
 18.950 -0.4078E-35  0.4000E+02
 19.000 -0.2282E-39  0.4000E+02
 19.050 -0.7345E-44  0.4000E+02
 19.100 -0.1360E-48  0.4000E+02
 19.150 -0.1448E-53  0.4000E+02
 19.200 -0.8875E-59  0.4000E+02
 19.250 -0.3130E-64  0.4000E+02
 19.300 -0.6353E-70  0.4000E+02
 19.350 -0.7426E-76  0.4000E+02
 19.400 -0.4616E-79  0.4000E+02
 19.450 -0.4624E-79  0.4000E+02
 19.500 -0.4637E-79  0.4000E+02
 19.550 -0.4651E-79  0.4000E+02
 19.600 -0.4664E-79  0.4000E+02
 19.650 -0.4677E-79  0.4000E+02
 19.700 -0.4690E-79  0.4000E+02
 19.750 -0.4703E-79  0.4000E+02
 19.800 -0.4717E-79  0.4000E+02
 19.850 -0.4730E-79  0.4000E+02
 19.900 -0.4743E-79  0.4000E+02
 19.950 -0.4757E-79  0.4000E+02
 20.000 -0.4770E-79  0.4000E+02
